USUBJID,AEDECOD,AESER,AESEV,AESTDY
ABC123-1001,Dizziness,N,Mild,24
ABC123-1001,Headache,N,Moderate,17
ABC123-1001,Dizziness,N,Mild,22
ABC123-1002,Headache,Y,Mild,22
ABC123-1002,Fatigue,N,Moderate,5
ABC123-1004,Nausea,Y,Severe,25
ABC123-1006,Nausea,N,Severe,21
ABC123-1006,Fatigue,Y,Mild,10
ABC123-1007,Headache,Y,Mild,3
ABC123-1007,Fatigue,N,Moderate,11
ABC123-1007,Nausea,N,Moderate,27
ABC123-1008,Fatigue,N,Severe,27
ABC123-1009,Fatigue,Y,Mild,7
ABC123-1009,Dizziness,N,Mild,17
ABC123-1009,Headache,N,Moderate,26
ABC123-1010,Nausea,N,Severe,17
ABC123-1010,Dizziness,N,Moderate,22
ABC123-1010,Dizziness,N,Mild,7
ABC123-1012,Headache,N,Severe,27
ABC123-1012,Dizziness,N,Moderate,29
ABC123-1012,Headache,Y,Moderate,16
ABC123-1013,Fatigue,Y,Moderate,19
ABC123-1013,Fatigue,N,Moderate,28
ABC123-1013,Headache,N,Moderate,19
ABC123-1014,Dizziness,Y,Mild,23
ABC123-1014,Fatigue,N,Moderate,10
ABC123-1015,Nausea,N,Mild,23
ABC123-1015,Fatigue,Y,Moderate,7
ABC123-1017,Headache,N,Severe,24
ABC123-1017,Fatigue,N,Mild,8
ABC123-1017,Nausea,N,Mild,3
ABC123-1018,Headache,N,Moderate,3
ABC123-1018,Dizziness,N,Moderate,11
ABC123-1019,Dizziness,N,Moderate,21
ABC123-1019,Nausea,N,Moderate,7
ABC123-1019,Nausea,Y,Severe,21
ABC123-1020,Dizziness,Y,Mild,28
ABC123-1020,Nausea,N,Severe,5
ABC123-1021,Fatigue,N,Moderate,3
ABC123-1021,Fatigue,Y,Mild,5
ABC123-1021,Nausea,N,Mild,2
ABC123-1023,Fatigue,N,Moderate,12
ABC123-1023,Dizziness,Y,Moderate,24
ABC123-1023,Fatigue,N,Mild,18
ABC123-1024,Headache,N,Moderate,13
ABC123-1024,Headache,N,Moderate,22
ABC123-1025,Nausea,N,Moderate,29
ABC123-1025,Headache,N,Mild,11
ABC123-1026,Nausea,N,Moderate,4
ABC123-1028,Nausea,N,Mild,6
ABC123-1029,Dizziness,N,Moderate,22
ABC123-1031,Headache,N,Severe,8
ABC123-1031,Nausea,N,Mild,21
ABC123-1032,Nausea,N,Moderate,21
ABC123-1032,Dizziness,N,Moderate,2
ABC123-1033,Nausea,N,Severe,21
ABC123-1033,Dizziness,N,Mild,21
ABC123-1033,Fatigue,N,Mild,27
ABC123-1034,Dizziness,N,Moderate,23
ABC123-1034,Fatigue,N,Moderate,5
ABC123-1035,Headache,N,Severe,20
ABC123-1035,Fatigue,N,Severe,17
ABC123-1035,Nausea,N,Severe,2
ABC123-1037,Nausea,Y,Mild,8
ABC123-1042,Dizziness,N,Severe,3
ABC123-1042,Fatigue,Y,Severe,6
ABC123-1043,Dizziness,N,Severe,27
ABC123-1047,Headache,N,Severe,12
ABC123-1048,Dizziness,N,Severe,21
ABC123-1050,Headache,N,Moderate,8
ABC123-1050,Headache,N,Severe,27
ABC123-1051,Headache,N,Severe,10
ABC123-1052,Fatigue,N,Moderate,21
ABC123-1052,Nausea,N,Moderate,15
ABC123-1052,Headache,N,Severe,16
ABC123-1053,Nausea,N,Mild,18
ABC123-1053,Fatigue,N,Severe,3
ABC123-1053,Nausea,N,Severe,17
ABC123-1054,Fatigue,N,Mild,2
ABC123-1055,Headache,N,Moderate,23
ABC123-1055,Fatigue,Y,Severe,24
ABC123-1057,Headache,N,Mild,18
ABC123-1057,Headache,N,Moderate,12
ABC123-1057,Nausea,N,Severe,10
ABC123-1058,Nausea,Y,Mild,13
ABC123-1059,Dizziness,N,Severe,7
ABC123-1060,Dizziness,Y,Mild,29
ABC123-1061,Headache,N,Severe,25
ABC123-1062,Nausea,N,Severe,20
ABC123-1065,Headache,Y,Moderate,24
ABC123-1066,Nausea,N,Moderate,5
ABC123-1068,Headache,N,Severe,9
ABC123-1068,Fatigue,N,Severe,26
ABC123-1068,Headache,N,Severe,28
ABC123-1069,Fatigue,N,Moderate,24
ABC123-1070,Nausea,N,Mild,7
ABC123-1070,Dizziness,Y,Mild,22
ABC123-1072,Headache,Y,Severe,2
ABC123-1072,Headache,N,Mild,26
ABC123-1073,Dizziness,N,Mild,22
ABC123-1073,Fatigue,N,Mild,3
ABC123-1074,Nausea,N,Severe,10
ABC123-1074,Fatigue,N,Moderate,17
ABC123-1074,Dizziness,N,Severe,6
ABC123-1076,Headache,N,Mild,4
ABC123-1076,Nausea,N,Severe,9
ABC123-1076,Dizziness,N,Mild,9
ABC123-1077,Headache,N,Moderate,9
ABC123-1077,Fatigue,N,Mild,11
ABC123-1078,Nausea,N,Severe,6
ABC123-1078,Dizziness,N,Moderate,18
ABC123-1079,Headache,N,Mild,28
ABC123-1083,Dizziness,N,Moderate,29
ABC123-1084,Nausea,N,Moderate,8
ABC123-1084,Fatigue,N,Mild,6
ABC123-1085,Fatigue,N,Mild,27
ABC123-1085,Fatigue,Y,Mild,11
ABC123-1085,Headache,N,Moderate,4
ABC123-1086,Fatigue,N,Severe,5
ABC123-1086,Fatigue,N,Mild,19
ABC123-1087,Fatigue,Y,Severe,21
ABC123-1087,Nausea,N,Moderate,4
ABC123-1088,Nausea,N,Severe,2
ABC123-1089,Headache,N,Mild,9
ABC123-1089,Headache,Y,Moderate,28
ABC123-1089,Dizziness,N,Severe,16
ABC123-1090,Fatigue,N,Moderate,9
ABC123-1091,Nausea,N,Severe,5
ABC123-1091,Headache,N,Moderate,4
ABC123-1091,Fatigue,Y,Moderate,17
ABC123-1092,Nausea,N,Moderate,24
ABC123-1093,Nausea,N,Severe,29
ABC123-1093,Dizziness,N,Severe,20
ABC123-1095,Fatigue,Y,Mild,6
ABC123-1095,Fatigue,N,Severe,11
ABC123-1095,Nausea,Y,Moderate,14
ABC123-1096,Headache,N,Severe,13
ABC123-1098,Fatigue,N,Mild,11
ABC123-1098,Dizziness,N,Severe,14
ABC123-1099,Nausea,Y,Severe,17
ABC123-1099,Nausea,Y,Mild,21
ABC123-1099,Fatigue,N,Severe,20
ABC123-1100,Fatigue,N,Severe,27
ABC123-1102,Dizziness,N,Moderate,29
ABC123-1103,Dizziness,N,Moderate,15
ABC123-1103,Dizziness,N,Moderate,25
ABC123-1107,Fatigue,N,Moderate,20
ABC123-1107,Fatigue,N,Mild,24
ABC123-1107,Dizziness,N,Moderate,15
ABC123-1109,Nausea,N,Moderate,12
ABC123-1110,Dizziness,N,Mild,28
ABC123-1110,Fatigue,N,Mild,21
ABC123-1110,Nausea,N,Severe,13
ABC123-1112,Headache,Y,Moderate,14
ABC123-1112,Fatigue,N,Severe,13
ABC123-1112,Headache,N,Moderate,9
ABC123-1113,Fatigue,N,Mild,17
ABC123-1113,Dizziness,N,Severe,16
ABC123-1113,Nausea,N,Mild,10
ABC123-1114,Dizziness,N,Mild,2
ABC123-1114,Headache,Y,Mild,1
ABC123-1114,Headache,Y,Moderate,7
ABC123-1115,Nausea,N,Moderate,26
ABC123-1116,Fatigue,N,Severe,12
ABC123-1118,Fatigue,Y,Severe,6
ABC123-1118,Headache,N,Severe,9
ABC123-1118,Nausea,N,Moderate,28
ABC123-1119,Dizziness,N,Severe,7
ABC123-1120,Dizziness,N,Moderate,26
ABC123-1120,Nausea,N,Severe,9
ABC123-1121,Nausea,N,Moderate,22
ABC123-1121,Dizziness,N,Mild,25
ABC123-1121,Headache,N,Severe,23
ABC123-1122,Dizziness,N,Mild,23
ABC123-1124,Dizziness,N,Moderate,6
ABC123-1124,Nausea,N,Mild,24
ABC123-1126,Fatigue,Y,Severe,3
ABC123-1126,Headache,Y,Severe,15
ABC123-1128,Dizziness,Y,Mild,26
ABC123-1128,Headache,N,Mild,4
ABC123-1129,Dizziness,N,Moderate,17
ABC123-1129,Fatigue,N,Moderate,21
ABC123-1129,Nausea,N,Moderate,15
ABC123-1130,Dizziness,N,Moderate,19
ABC123-1131,Nausea,N,Severe,13
ABC123-1131,Nausea,N,Severe,1
ABC123-1132,Nausea,N,Moderate,23
ABC123-1132,Nausea,N,Moderate,2
ABC123-1133,Headache,N,Mild,9
ABC123-1133,Nausea,Y,Mild,15
ABC123-1134,Dizziness,N,Moderate,7
ABC123-1135,Headache,N,Mild,28
ABC123-1136,Fatigue,N,Severe,1
ABC123-1137,Dizziness,Y,Mild,23
ABC123-1137,Fatigue,N,Moderate,3
ABC123-1137,Nausea,Y,Moderate,29
ABC123-1138,Dizziness,N,Mild,5
ABC123-1139,Dizziness,N,Mild,25
ABC123-1139,Dizziness,N,Mild,11
ABC123-1139,Headache,N,Mild,17
ABC123-1141,Dizziness,N,Severe,15
ABC123-1141,Nausea,N,Mild,20
ABC123-1141,Nausea,N,Mild,5
ABC123-1142,Nausea,Y,Severe,3
ABC123-1142,Nausea,Y,Severe,5
ABC123-1142,Headache,N,Moderate,12
ABC123-1143,Dizziness,N,Severe,11
ABC123-1144,Nausea,N,Mild,25
ABC123-1145,Fatigue,N,Severe,18
ABC123-1145,Fatigue,N,Severe,13
ABC123-1146,Dizziness,N,Severe,8
ABC123-1146,Nausea,Y,Severe,8
ABC123-1146,Headache,N,Mild,15
ABC123-1147,Fatigue,N,Severe,23
ABC123-1148,Fatigue,N,Moderate,18
ABC123-1150,Dizziness,N,Mild,12
ABC123-1151,Dizziness,N,Mild,1
ABC123-1151,Fatigue,N,Moderate,21
ABC123-1152,Headache,N,Moderate,28
ABC123-1152,Nausea,N,Moderate,9
ABC123-1152,Headache,N,Mild,9
ABC123-1155,Headache,Y,Moderate,29
ABC123-1155,Nausea,N,Moderate,19
ABC123-1156,Nausea,N,Mild,23
ABC123-1157,Headache,N,Moderate,22
ABC123-1157,Fatigue,Y,Severe,1
ABC123-1158,Nausea,N,Mild,19
ABC123-1158,Dizziness,N,Mild,17
ABC123-1158,Dizziness,N,Moderate,26
ABC123-1159,Fatigue,Y,Moderate,10
ABC123-1159,Nausea,N,Severe,21
ABC123-1160,Dizziness,N,Moderate,28
ABC123-1163,Headache,N,Moderate,16
ABC123-1165,Dizziness,N,Severe,16
ABC123-1165,Fatigue,N,Moderate,12
ABC123-1166,Fatigue,Y,Severe,11
ABC123-1166,Fatigue,N,Mild,28
ABC123-1167,Headache,N,Severe,15
ABC123-1167,Dizziness,N,Moderate,19
ABC123-1168,Nausea,N,Mild,20
ABC123-1169,Fatigue,N,Severe,8
ABC123-1170,Nausea,N,Moderate,2
ABC123-1170,Headache,N,Moderate,25
ABC123-1170,Nausea,Y,Severe,12
ABC123-1171,Fatigue,N,Severe,24
ABC123-1173,Headache,N,Moderate,7
ABC123-1174,Headache,N,Mild,10
ABC123-1175,Fatigue,Y,Moderate,22
ABC123-1175,Headache,N,Mild,26
ABC123-1177,Nausea,Y,Mild,29
ABC123-1177,Nausea,N,Mild,26
ABC123-1178,Headache,N,Severe,4
ABC123-1178,Dizziness,N,Mild,18
ABC123-1179,Dizziness,Y,Severe,18
ABC123-1179,Headache,Y,Severe,12
ABC123-1180,Headache,N,Mild,22
ABC123-1181,Headache,N,Severe,11
ABC123-1181,Nausea,N,Mild,29
ABC123-1181,Headache,N,Moderate,3
ABC123-1182,Headache,N,Moderate,22
ABC123-1182,Headache,N,Mild,11
ABC123-1183,Dizziness,Y,Severe,4
ABC123-1183,Nausea,N,Severe,13
ABC123-1184,Dizziness,Y,Mild,4
ABC123-1185,Headache,N,Severe,6
ABC123-1185,Headache,N,Mild,17
ABC123-1186,Nausea,N,Severe,21
ABC123-1186,Dizziness,N,Moderate,3
ABC123-1186,Nausea,N,Moderate,3
ABC123-1187,Nausea,Y,Moderate,6
ABC123-1189,Nausea,N,Moderate,12
ABC123-1189,Nausea,N,Mild,29
ABC123-1190,Fatigue,N,Moderate,25
ABC123-1190,Fatigue,N,Mild,16
ABC123-1191,Dizziness,N,Moderate,13
ABC123-1191,Fatigue,N,Moderate,5
ABC123-1191,Dizziness,N,Mild,25
ABC123-1192,Headache,Y,Moderate,18
ABC123-1193,Fatigue,N,Mild,16
ABC123-1193,Dizziness,N,Moderate,29
ABC123-1193,Nausea,Y,Severe,18
ABC123-1195,Headache,Y,Severe,25
ABC123-1198,Fatigue,N,Severe,26
ABC123-1198,Dizziness,N,Moderate,3
ABC123-1199,Fatigue,N,Mild,20
ABC123-1200,Dizziness,N,Moderate,6
ABC123-1201,Headache,N,Moderate,14
ABC123-1202,Fatigue,N,Moderate,9
ABC123-1203,Headache,Y,Severe,2
ABC123-1203,Fatigue,N,Moderate,10
ABC123-1205,Headache,N,Mild,4
ABC123-1206,Nausea,Y,Moderate,14
ABC123-1206,Headache,N,Severe,9
ABC123-1207,Headache,N,Moderate,8
ABC123-1209,Dizziness,Y,Mild,28
ABC123-1210,Dizziness,Y,Mild,14
ABC123-1210,Dizziness,N,Severe,6
ABC123-1210,Dizziness,N,Moderate,2
ABC123-1211,Fatigue,Y,Severe,5
ABC123-1211,Fatigue,Y,Mild,2
ABC123-1211,Nausea,N,Mild,24
ABC123-1212,Headache,N,Mild,3
ABC123-1212,Headache,Y,Moderate,14
ABC123-1213,Fatigue,N,Mild,4
ABC123-1213,Dizziness,N,Mild,5
ABC123-1214,Dizziness,N,Moderate,7
ABC123-1214,Nausea,Y,Severe,29
ABC123-1215,Fatigue,N,Moderate,14
ABC123-1215,Fatigue,N,Moderate,5
ABC123-1216,Fatigue,N,Severe,21
ABC123-1217,Nausea,N,Moderate,23
ABC123-1218,Dizziness,N,Mild,13
ABC123-1220,Nausea,N,Mild,18
ABC123-1223,Dizziness,N,Mild,28
ABC123-1223,Fatigue,N,Severe,21
ABC123-1223,Nausea,Y,Moderate,20
ABC123-1224,Dizziness,N,Severe,9
ABC123-1224,Headache,N,Moderate,10
ABC123-1224,Headache,N,Mild,9
ABC123-1225,Headache,N,Mild,1
ABC123-1225,Nausea,N,Mild,1
ABC123-1225,Nausea,N,Mild,28
ABC123-1226,Fatigue,N,Severe,22
ABC123-1226,Dizziness,N,Mild,28
ABC123-1227,Dizziness,N,Mild,12
ABC123-1227,Headache,N,Mild,8
ABC123-1229,Fatigue,N,Severe,24
ABC123-1229,Fatigue,Y,Mild,20
ABC123-1231,Nausea,N,Severe,20
ABC123-1231,Fatigue,N,Severe,28
ABC123-1231,Fatigue,Y,Mild,5
ABC123-1232,Nausea,N,Moderate,6
ABC123-1233,Dizziness,N,Mild,8
ABC123-1233,Dizziness,N,Mild,2
ABC123-1234,Nausea,Y,Moderate,4
ABC123-1234,Nausea,Y,Mild,26
ABC123-1235,Nausea,N,Moderate,21
ABC123-1235,Dizziness,N,Moderate,22
ABC123-1238,Fatigue,N,Moderate,11
ABC123-1238,Nausea,N,Moderate,23
ABC123-1238,Headache,N,Severe,14
ABC123-1239,Nausea,N,Moderate,20
ABC123-1239,Nausea,N,Severe,14
ABC123-1239,Headache,N,Severe,26
ABC123-1240,Nausea,N,Mild,12
ABC123-1240,Headache,N,Mild,13
ABC123-1240,Nausea,N,Moderate,8
ABC123-1241,Fatigue,Y,Severe,22
ABC123-1242,Fatigue,N,Mild,13
ABC123-1243,Nausea,Y,Severe,20
ABC123-1244,Nausea,N,Severe,23
ABC123-1244,Dizziness,N,Moderate,11
ABC123-1248,Fatigue,N,Severe,23
ABC123-1248,Headache,Y,Severe,25
ABC123-1248,Dizziness,N,Moderate,26
ABC123-1249,Dizziness,N,Mild,3
ABC123-1249,Headache,N,Severe,10
ABC123-1249,Nausea,N,Moderate,21
ABC123-1250,Nausea,N,Severe,2
ABC123-1250,Headache,N,Mild,20
ABC123-1250,Dizziness,Y,Moderate,26
ABC123-1251,Dizziness,N,Moderate,25
ABC123-1252,Headache,N,Severe,16
ABC123-1253,Fatigue,N,Severe,5
ABC123-1253,Nausea,N,Mild,4
ABC123-1254,Nausea,N,Severe,26
ABC123-1254,Headache,N,Moderate,8
ABC123-1254,Fatigue,Y,Moderate,14
ABC123-1255,Dizziness,N,Mild,23
ABC123-1255,Fatigue,N,Moderate,3
ABC123-1255,Dizziness,Y,Moderate,23
ABC123-1256,Dizziness,Y,Moderate,18
ABC123-1256,Fatigue,N,Severe,17
ABC123-1256,Fatigue,Y,Moderate,24
ABC123-1258,Nausea,N,Mild,4
ABC123-1258,Dizziness,N,Mild,4
ABC123-1258,Nausea,N,Severe,1
ABC123-1259,Fatigue,N,Severe,28
ABC123-1260,Fatigue,N,Moderate,13
ABC123-1260,Headache,N,Severe,27
ABC123-1261,Nausea,N,Severe,7
ABC123-1261,Headache,N,Mild,25
ABC123-1262,Headache,N,Severe,13
ABC123-1262,Fatigue,Y,Moderate,22
ABC123-1262,Headache,N,Severe,13
ABC123-1263,Headache,Y,Severe,14
ABC123-1263,Nausea,N,Mild,5
ABC123-1264,Headache,N,Mild,4
ABC123-1264,Nausea,N,Moderate,7
ABC123-1264,Fatigue,N,Mild,24
ABC123-1266,Nausea,Y,Moderate,28
ABC123-1266,Dizziness,Y,Severe,20
ABC123-1266,Dizziness,N,Mild,24
ABC123-1267,Nausea,N,Severe,3
ABC123-1267,Fatigue,N,Moderate,16
ABC123-1267,Dizziness,N,Moderate,25
ABC123-1269,Dizziness,Y,Severe,20
ABC123-1270,Nausea,N,Mild,4
ABC123-1271,Headache,N,Moderate,15
ABC123-1272,Dizziness,N,Severe,16
ABC123-1273,Headache,Y,Moderate,25
ABC123-1273,Headache,N,Moderate,5
ABC123-1274,Fatigue,Y,Mild,19
ABC123-1274,Fatigue,N,Mild,29
ABC123-1277,Headache,N,Moderate,25
ABC123-1278,Nausea,N,Mild,24
ABC123-1278,Headache,N,Moderate,11
ABC123-1280,Nausea,N,Moderate,6
ABC123-1280,Nausea,N,Mild,10
ABC123-1283,Nausea,N,Moderate,10
ABC123-1284,Dizziness,N,Mild,7
ABC123-1285,Dizziness,Y,Moderate,28
ABC123-1286,Nausea,N,Severe,17
ABC123-1286,Dizziness,N,Mild,20
ABC123-1287,Fatigue,N,Moderate,15
ABC123-1288,Dizziness,N,Moderate,20
ABC123-1288,Dizziness,N,Mild,9
ABC123-1288,Dizziness,N,Moderate,17
ABC123-1289,Nausea,Y,Moderate,3
ABC123-1289,Dizziness,N,Moderate,20
ABC123-1290,Nausea,N,Severe,25
ABC123-1290,Fatigue,N,Severe,5
ABC123-1291,Fatigue,N,Moderate,8
ABC123-1291,Dizziness,N,Mild,4
ABC123-1294,Fatigue,N,Severe,16
ABC123-1294,Nausea,N,Moderate,28
ABC123-1294,Dizziness,N,Moderate,7
ABC123-1295,Fatigue,N,Severe,18
ABC123-1295,Fatigue,N,Mild,28
ABC123-1295,Headache,Y,Mild,28
ABC123-1296,Fatigue,N,Moderate,6
ABC123-1296,Nausea,Y,Mild,12
ABC123-1296,Fatigue,N,Mild,13
ABC123-1297,Headache,N,Mild,2
ABC123-1297,Dizziness,N,Moderate,27
ABC123-1298,Dizziness,Y,Mild,3
ABC123-1298,Headache,Y,Moderate,26
ABC123-1299,Nausea,N,Mild,28
ABC123-1302,Nausea,N,Severe,28
ABC123-1302,Dizziness,N,Moderate,15
ABC123-1302,Dizziness,N,Mild,24
ABC123-1303,Nausea,N,Moderate,26
ABC123-1304,Headache,Y,Moderate,1
ABC123-1304,Headache,N,Moderate,9
ABC123-1304,Fatigue,N,Moderate,11
ABC123-1306,Dizziness,N,Mild,5
ABC123-1306,Dizziness,N,Severe,27
ABC123-1307,Headache,Y,Moderate,2
ABC123-1307,Fatigue,N,Severe,7
ABC123-1308,Headache,N,Mild,8
ABC123-1309,Fatigue,Y,Severe,4
ABC123-1309,Nausea,N,Moderate,15
ABC123-1310,Headache,Y,Mild,21
ABC123-1310,Nausea,N,Mild,7
ABC123-1312,Dizziness,N,Moderate,19
ABC123-1312,Headache,N,Severe,23
ABC123-1313,Fatigue,N,Moderate,6
ABC123-1313,Nausea,N,Moderate,3
ABC123-1314,Nausea,N,Severe,20
ABC123-1314,Headache,Y,Moderate,26
ABC123-1315,Fatigue,Y,Mild,19
ABC123-1316,Fatigue,N,Severe,9
ABC123-1317,Dizziness,N,Moderate,9
ABC123-1317,Fatigue,N,Mild,28
ABC123-1317,Fatigue,N,Moderate,24
ABC123-1318,Headache,N,Mild,9
ABC123-1319,Headache,N,Mild,14
ABC123-1319,Fatigue,Y,Mild,27
ABC123-1319,Nausea,N,Severe,4
ABC123-1320,Dizziness,N,Mild,14
ABC123-1320,Nausea,N,Severe,23
ABC123-1320,Dizziness,N,Mild,16
ABC123-1321,Dizziness,N,Moderate,18
ABC123-1323,Headache,Y,Mild,3
ABC123-1323,Dizziness,Y,Mild,9
ABC123-1326,Fatigue,N,Mild,8
ABC123-1326,Headache,N,Moderate,12
ABC123-1326,Nausea,N,Mild,19
ABC123-1327,Dizziness,N,Mild,19
ABC123-1328,Dizziness,N,Severe,4
ABC123-1329,Fatigue,Y,Moderate,12
ABC123-1329,Headache,N,Moderate,24
ABC123-1330,Fatigue,N,Mild,8
ABC123-1331,Nausea,Y,Mild,18
ABC123-1331,Headache,Y,Moderate,26
ABC123-1332,Dizziness,N,Moderate,1
ABC123-1332,Headache,N,Mild,3
ABC123-1333,Nausea,N,Mild,20
ABC123-1333,Dizziness,N,Mild,6
ABC123-1333,Headache,Y,Moderate,8
ABC123-1334,Dizziness,Y,Moderate,7
ABC123-1334,Headache,N,Moderate,10
ABC123-1335,Nausea,N,Mild,24
ABC123-1335,Headache,N,Mild,24
ABC123-1337,Fatigue,N,Mild,7
ABC123-1337,Headache,N,Moderate,19
ABC123-1338,Headache,N,Mild,1
ABC123-1338,Dizziness,N,Mild,21
ABC123-1340,Headache,N,Mild,26
ABC123-1340,Fatigue,N,Mild,8
ABC123-1340,Headache,N,Severe,13
ABC123-1341,Fatigue,Y,Moderate,18
ABC123-1341,Nausea,N,Mild,4
ABC123-1342,Headache,Y,Mild,1
ABC123-1343,Nausea,N,Mild,7
ABC123-1343,Nausea,N,Mild,10
ABC123-1343,Nausea,N,Mild,10
ABC123-1344,Nausea,Y,Mild,25
ABC123-1345,Dizziness,Y,Moderate,27
ABC123-1345,Headache,N,Moderate,3
ABC123-1346,Nausea,Y,Mild,9
ABC123-1346,Nausea,N,Severe,1
ABC123-1346,Fatigue,N,Moderate,5
ABC123-1348,Headache,N,Mild,23
ABC123-1349,Headache,Y,Mild,22
ABC123-1349,Fatigue,N,Severe,13
ABC123-1349,Fatigue,N,Moderate,26
ABC123-1350,Dizziness,N,Severe,3
ABC123-1351,Dizziness,N,Severe,23
ABC123-1351,Dizziness,N,Moderate,27
ABC123-1351,Headache,Y,Mild,24
ABC123-1352,Nausea,Y,Mild,7
ABC123-1352,Dizziness,Y,Mild,1
ABC123-1353,Dizziness,N,Moderate,28
ABC123-1353,Nausea,N,Severe,15
ABC123-1354,Fatigue,N,Mild,17
ABC123-1354,Nausea,N,Moderate,16
ABC123-1355,Dizziness,N,Mild,4
ABC123-1355,Headache,Y,Mild,24
ABC123-1355,Dizziness,N,Severe,13
ABC123-1356,Nausea,Y,Moderate,11
ABC123-1356,Dizziness,N,Severe,18
ABC123-1356,Nausea,N,Severe,21
ABC123-1357,Nausea,N,Mild,5
ABC123-1358,Dizziness,N,Severe,6
ABC123-1359,Nausea,N,Mild,29
ABC123-1359,Headache,N,Moderate,20
ABC123-1359,Headache,N,Moderate,4
ABC123-1365,Headache,N,Severe,23
ABC123-1366,Fatigue,N,Mild,19
ABC123-1366,Nausea,Y,Moderate,12
ABC123-1368,Fatigue,N,Severe,1
ABC123-1368,Dizziness,N,Mild,3
ABC123-1368,Headache,N,Severe,4
ABC123-1369,Headache,N,Moderate,8
ABC123-1369,Nausea,N,Moderate,19
ABC123-1371,Headache,Y,Mild,17
ABC123-1371,Headache,N,Severe,27
ABC123-1373,Fatigue,N,Severe,12
ABC123-1374,Headache,N,Severe,28
ABC123-1377,Dizziness,N,Moderate,12
ABC123-1377,Nausea,Y,Severe,26
ABC123-1377,Dizziness,Y,Moderate,23
ABC123-1378,Dizziness,N,Mild,24
ABC123-1379,Fatigue,N,Mild,19
ABC123-1379,Nausea,N,Mild,14
ABC123-1380,Nausea,N,Severe,15
ABC123-1380,Dizziness,N,Severe,16
ABC123-1381,Headache,Y,Mild,17
ABC123-1381,Headache,N,Severe,6
ABC123-1382,Fatigue,Y,Severe,14
ABC123-1382,Headache,N,Moderate,22
ABC123-1384,Fatigue,N,Moderate,10
ABC123-1385,Nausea,N,Moderate,9
ABC123-1385,Dizziness,N,Moderate,25
ABC123-1385,Nausea,Y,Severe,18
ABC123-1386,Nausea,N,Severe,7
ABC123-1386,Fatigue,N,Mild,5
ABC123-1386,Headache,Y,Mild,8
ABC123-1387,Headache,N,Mild,1
ABC123-1387,Dizziness,N,Severe,8
ABC123-1387,Fatigue,N,Moderate,14
ABC123-1388,Dizziness,N,Moderate,11
ABC123-1388,Fatigue,N,Moderate,28
ABC123-1388,Headache,N,Moderate,13
ABC123-1390,Fatigue,N,Moderate,8
ABC123-1390,Headache,N,Moderate,28
ABC123-1391,Nausea,Y,Moderate,26
ABC123-1391,Headache,N,Severe,28
ABC123-1391,Nausea,N,Severe,14
ABC123-1392,Nausea,N,Moderate,29
ABC123-1392,Fatigue,N,Mild,17
ABC123-1392,Headache,N,Mild,21
ABC123-1393,Headache,N,Mild,22
ABC123-1393,Fatigue,N,Severe,10
ABC123-1394,Dizziness,N,Moderate,14
ABC123-1395,Dizziness,N,Mild,24
ABC123-1396,Nausea,N,Mild,27
ABC123-1396,Fatigue,N,Severe,14
ABC123-1397,Nausea,N,Severe,11
ABC123-1399,Headache,N,Severe,17
ABC123-1399,Nausea,N,Moderate,22
ABC123-1399,Nausea,N,Moderate,8
ABC123-1401,Headache,N,Mild,28
ABC123-1402,Headache,N,Severe,9
ABC123-1402,Fatigue,N,Moderate,15
ABC123-1403,Headache,N,Moderate,16
ABC123-1403,Dizziness,N,Mild,17
ABC123-1404,Fatigue,N,Mild,28
ABC123-1405,Headache,N,Moderate,15
ABC123-1405,Fatigue,N,Severe,13
ABC123-1408,Dizziness,Y,Severe,25
ABC123-1408,Nausea,N,Severe,19
ABC123-1408,Dizziness,N,Mild,5
ABC123-1409,Dizziness,N,Mild,3
ABC123-1410,Dizziness,N,Moderate,3
ABC123-1410,Dizziness,Y,Severe,9
ABC123-1412,Headache,N,Severe,2
ABC123-1413,Headache,N,Severe,22
ABC123-1413,Dizziness,N,Mild,23
ABC123-1413,Headache,Y,Mild,24
ABC123-1414,Fatigue,Y,Severe,28
ABC123-1414,Nausea,N,Mild,28
ABC123-1414,Dizziness,N,Mild,4
ABC123-1416,Fatigue,N,Mild,17
ABC123-1416,Nausea,N,Mild,12
ABC123-1416,Fatigue,N,Moderate,13
ABC123-1418,Dizziness,N,Mild,4
ABC123-1419,Nausea,Y,Severe,15
ABC123-1420,Headache,N,Mild,11
ABC123-1422,Nausea,N,Moderate,1
ABC123-1422,Dizziness,N,Severe,17
ABC123-1422,Dizziness,Y,Severe,22
ABC123-1424,Fatigue,N,Mild,2
ABC123-1426,Fatigue,Y,Mild,25
ABC123-1428,Nausea,N,Mild,12
ABC123-1428,Dizziness,N,Mild,4
ABC123-1430,Dizziness,N,Mild,11
ABC123-1430,Dizziness,N,Mild,24
ABC123-1431,Headache,N,Severe,29
ABC123-1431,Headache,N,Moderate,28
ABC123-1431,Headache,N,Severe,12
ABC123-1432,Dizziness,N,Mild,23
ABC123-1434,Dizziness,N,Severe,15
ABC123-1434,Dizziness,Y,Mild,17
ABC123-1434,Fatigue,N,Severe,10
ABC123-1436,Headache,N,Mild,19
ABC123-1437,Headache,N,Severe,28
ABC123-1437,Fatigue,N,Mild,15
ABC123-1438,Nausea,N,Mild,15
ABC123-1438,Fatigue,N,Moderate,26
ABC123-1438,Headache,N,Mild,11
ABC123-1439,Nausea,N,Moderate,27
ABC123-1439,Nausea,N,Mild,26
ABC123-1439,Headache,N,Moderate,6
ABC123-1440,Nausea,N,Moderate,10
ABC123-1441,Headache,N,Severe,6
ABC123-1443,Dizziness,N,Mild,17
ABC123-1443,Dizziness,N,Moderate,11
ABC123-1443,Fatigue,N,Moderate,9
ABC123-1444,Dizziness,N,Severe,26
ABC123-1444,Nausea,N,Severe,5
ABC123-1444,Headache,N,Severe,23
ABC123-1445,Nausea,Y,Moderate,4
ABC123-1446,Fatigue,N,Mild,2
ABC123-1446,Headache,N,Mild,16
ABC123-1446,Nausea,N,Mild,10
ABC123-1447,Nausea,N,Severe,1
ABC123-1447,Fatigue,N,Severe,20
ABC123-1447,Dizziness,N,Mild,22
ABC123-1448,Headache,N,Mild,28
ABC123-1448,Dizziness,N,Severe,11
ABC123-1448,Headache,N,Moderate,23
ABC123-1449,Dizziness,Y,Mild,27
ABC123-1449,Headache,N,Mild,13
ABC123-1449,Nausea,N,Moderate,24
ABC123-1450,Fatigue,N,Mild,25
ABC123-1450,Headache,N,Severe,20
ABC123-1451,Headache,Y,Severe,17
ABC123-1451,Fatigue,N,Moderate,17
ABC123-1451,Nausea,N,Mild,20
ABC123-1453,Nausea,N,Moderate,1
ABC123-1453,Nausea,N,Severe,10
ABC123-1454,Fatigue,N,Mild,26
ABC123-1454,Headache,Y,Moderate,24
ABC123-1458,Headache,N,Severe,21
ABC123-1458,Fatigue,N,Severe,19
ABC123-1458,Headache,N,Severe,23
ABC123-1459,Nausea,N,Mild,14
ABC123-1459,Dizziness,N,Severe,18
ABC123-1460,Headache,N,Mild,16
ABC123-1460,Fatigue,N,Moderate,28
ABC123-1460,Nausea,Y,Moderate,15
ABC123-1461,Headache,N,Severe,24
ABC123-1461,Fatigue,N,Mild,4
ABC123-1462,Headache,N,Moderate,4
ABC123-1463,Nausea,N,Severe,21
ABC123-1463,Dizziness,N,Mild,5
ABC123-1464,Nausea,N,Mild,25
ABC123-1464,Headache,N,Moderate,6
ABC123-1467,Dizziness,N,Moderate,21
ABC123-1469,Fatigue,N,Moderate,15
ABC123-1469,Dizziness,N,Moderate,19
ABC123-1469,Fatigue,N,Mild,5
ABC123-1471,Nausea,N,Moderate,5
ABC123-1471,Headache,N,Severe,14
ABC123-1473,Dizziness,N,Moderate,4
ABC123-1474,Dizziness,N,Mild,22
ABC123-1474,Headache,Y,Severe,23
ABC123-1475,Nausea,N,Severe,2
ABC123-1475,Fatigue,N,Mild,11
ABC123-1476,Nausea,N,Mild,4
ABC123-1476,Dizziness,N,Mild,27
ABC123-1476,Headache,N,Mild,1
ABC123-1477,Headache,Y,Mild,9
ABC123-1477,Fatigue,N,Severe,7
ABC123-1478,Nausea,N,Severe,26
ABC123-1478,Fatigue,N,Mild,17
ABC123-1479,Fatigue,Y,Mild,13
ABC123-1480,Nausea,N,Mild,3
ABC123-1482,Headache,N,Severe,13
ABC123-1482,Fatigue,N,Mild,3
ABC123-1483,Fatigue,N,Moderate,17
ABC123-1484,Fatigue,N,Moderate,26
ABC123-1484,Headache,N,Mild,23
ABC123-1485,Dizziness,N,Severe,6
ABC123-1485,Headache,N,Severe,21
ABC123-1485,Headache,N,Moderate,8
ABC123-1487,Dizziness,N,Severe,12
ABC123-1487,Dizziness,Y,Moderate,25
ABC123-1487,Dizziness,N,Severe,2
ABC123-1488,Nausea,N,Mild,8
ABC123-1488,Fatigue,N,Severe,3
ABC123-1488,Nausea,N,Severe,19
ABC123-1489,Dizziness,N,Mild,17
ABC123-1490,Nausea,N,Mild,27
ABC123-1490,Dizziness,N,Mild,5
ABC123-1490,Headache,N,Mild,22
ABC123-1491,Fatigue,N,Moderate,16
ABC123-1491,Headache,N,Mild,27
ABC123-1491,Nausea,N,Severe,4
ABC123-1494,Nausea,N,Severe,14
ABC123-1494,Fatigue,N,Moderate,29
ABC123-1494,Dizziness,N,Moderate,10
ABC123-1497,Nausea,N,Moderate,17
ABC123-1497,Nausea,N,Mild,28
ABC123-1497,Nausea,N,Moderate,26
ABC123-1498,Headache,N,Mild,12
ABC123-1498,Fatigue,N,Moderate,2
ABC123-1498,Headache,N,Moderate,28
ABC123-1499,Nausea,N,Moderate,11
ABC123-1499,Fatigue,Y,Mild,15
ABC123-1499,Nausea,Y,Mild,22
ABC123-1500,Dizziness,N,Severe,15
ABC123-1500,Nausea,N,Moderate,22
ABC123-1500,Fatigue,N,Severe,10
